      Lazulite
      Giuseppetti G, Tadini C
      Neues Jahrbuch fur Mineralogie, Monatshefte 1983 (1983) 410-416
      Lazulite, (Mg,Fe)Al2(OH)2(PO4)2: structure refinement and hydrogen bonding
      Locality: Graves Mountain, Lincoln County, Georgia, USA
      _database_code_amcsd 0014778
      CELL PARAMETERS:   7.1440  7.2780  7.2280   90.000  120.510   90.000
      SPACE GROUP: P2_1/c    
      X-RAY WAVELENGTH:     1.790290
      Cell Volume:    323.778
      Density (g/cm3):      3.143
      MAX. ABS. INTENSITY / VOLUME**2:      8.323269311    
      RIR:      1.236
      RIR based on corundum from Acta Crystallographica A38 (1982) 733-739
               2-THETA      INTENSITY    D-SPACING   H   K   L   Multiplicity
                16.73          6.66        6.1548    1   0   0         2
                21.79          9.02        4.7366   -1   1   1         4
                21.81          6.33        4.7316    0   1   1         4
                21.96          7.22        4.6996    1   1   0         4
                28.48          1.94        3.6390    0   2   0         2
                28.68          2.34        3.6140   -1   0   2         2
                32.11        100.00        3.2369   -1   1   2         4
                32.42          4.48        3.2063   -2   1   1         4
                32.47         60.72        3.2016    1   1   1         4
                33.11         53.23        3.1419    0   2   1         4
                33.21          5.99        3.1325    1   2   0         4
                33.35         11.91        3.1193   -2   0   2         2
                33.82         39.82        3.0774    2   0   0         2
                40.86          4.26        2.5643   -1   2   2         4
                41.12         24.51        2.5490   -2   2   1         4
                44.78          1.31        2.3498    2   2   0         4
                44.87          1.54        2.3455   -3   0   2         2
                44.97          1.01        2.3406    1   0   2         2
                46.66          4.25        2.2605    0   3   1         4
                46.73          6.74        2.2570    1   3   0         4
                46.90          4.31        2.2496   -2   1   3         4
                47.28          1.90        2.2324   -3   1   2         4
                47.54          3.82        2.2207   -3   1   1         4
                47.60          3.40        2.2182    2   1   1         4
                51.74          2.71        2.0516    3   0   0         2
                52.77          5.94        2.0143   -1   3   2         4
                53.01          7.25        2.0057    1   3   1         4
                53.19          3.90        1.9995   -3   1   3         4
                53.66         12.17        1.9832   -2   2   3         4
                53.91          9.30        1.9747    3   1   0         4
                54.30          6.53        1.9616    2   2   1         4
                58.94          5.48        1.8195    0   4   0         2
                59.53          6.69        1.8030    0   2   3         4
================================================================================
       XPOW Copyright 1993 Bob Downs, Ranjini Swaminathan and Kurt Bartelmehs
  For reference, see Downs et al. (1993) American Mineralogist 78, 1104-1107.