      Monticellite
      Pilati T, Demartin F, Gramaccioli C M
      Acta Crystallographica B51 (1995) 721-733
      Thermal parameters for minerals of the olivine group:
      their implication on vibrational spectra,
      thermodynamic functions and transferable force fields
      Locality: Crestmore, California, USA
      _database_code_amcsd 0019700
      CELL PARAMETERS:  11.1098  6.3894  4.8281   90.000   90.000   90.000
      SPACE GROUP: Pnma      
      X-RAY WAVELENGTH:     1.790290
      Cell Volume:    342.723
      Density (g/cm3):      3.105
      MAX. ABS. INTENSITY / VOLUME**2:      7.229082343    
      RIR:      1.087
      RIR based on corundum from Acta Crystallographica A38 (1982) 733-739
               2-THETA      INTENSITY    D-SPACING   H   K   L   Multiplicity
                18.55         17.67        5.5549    2   0   0         2
                24.66         29.11        4.1921    2   1   0         4
                26.87         14.28        3.8520    0   1   1         4
                28.44         18.01        3.6440    2   0   1         4
                28.48         50.50        3.6395    1   1   1         8
                32.54         25.10        3.1947    0   2   0         2
                32.85          9.98        3.1654    2   1   1         8
                35.47         50.39        2.9384    3   0   1         4
                37.60          2.81        2.7775    4   0   0         2
                37.72          8.29        2.7694    2   2   0         4
                39.18        100.00        2.6696    3   1   1         8
                40.43         76.34        2.5908    1   2   1         8
                41.15         24.41        2.5472    4   1   0         4
                43.53          1.69        2.4141    0   0   2         2
                43.66         14.16        2.4075    4   0   1         4
                43.76         22.56        2.4022    2   2   1         8
                44.60          8.66        2.3590    1   0   2         4
                46.82          1.17        2.2529    4   1   1         8
                47.70          1.60        2.2140    2   0   2         4
                47.72          7.07        2.2130    1   1   2         8
                48.90          2.85        2.1627    3   2   1         8
                50.67          2.47        2.0920    2   1   2         8
                52.54          1.60        2.0223    3   0   2         4
                52.65          2.17        2.0185    5   0   1         4
                55.39          1.25        1.9260    0   2   2         4
                55.43          2.16        1.9247    5   1   1         8
                55.60          8.78        1.9193    1   3   1         8
                56.29          2.69        1.8977    1   2   2         8
                58.26          4.20        1.8388    2   3   1         8
                58.85         24.23        1.8220    4   0   2         4
                58.93         57.38        1.8197    2   2   2         8
================================================================================
       XPOW Copyright 1993 Bob Downs, Ranjini Swaminathan and Kurt Bartelmehs
  For reference, see Downs et al. (1993) American Mineralogist 78, 1104-1107.